Question 1 DS domain creation completed successfully.
Number of records in DS dataset: 850 
Variables in final DS dataset:
 [1] "STUDYID"  "DOMAIN"   "USUBJID"  "DSSEQ"    "DSTERM"   "DSDECOD"  "DSCAT"    "VISITNUM"
 [9] "VISIT"    "DSDTC"    "DSSTDTC"  "DSSTDY"  
Preview of final DS dataset:
# A tibble: 6 × 12
  STUDYID     DOMAIN USUBJID DSSEQ DSTERM DSDECOD DSCAT VISITNUM VISIT DSDTC DSSTDTC    DSSTDY
  <chr>       <chr>  <chr>   <int> <chr>  <chr>   <chr> <chr>    <chr> <iso> <date>      <int>
1 CDISCPILOT… DS     01-701…     1 FINAL… Final … OTHE… 13       WEEK… 2014… 2014-07-02    182
2 CDISCPILOT… DS     01-701…     2 PROTO… COMPLE… DISP… 13       WEEK… 2014… 2014-07-02    182
3 CDISCPILOT… DS     01-701…     3 RANDO… RANDOM… PROT… 3        BASE… 2014… 2014-01-02      1
4 CDISCPILOT… DS     01-701…     1 ADVER… ADVERS… DISP… 5        WEEK… 2012… 2012-09-02     29
5 CDISCPILOT… DS     01-701…     2 FINAL… Final … OTHE… 5        WEEK… 2012… 2012-09-02     29
6 CDISCPILOT… DS     01-701…     3 FINAL… Final … OTHE… 201      RETR… 2013… 2013-02-18    198
